's16ho008.cg1' 'Dec  1 2010 04:59' 'I'         15.    2  'TIME'   51  'RAW'
  Filename         Date            Scan       Mon    Prf  Base   #pts  Type
s16ho pt nafion in 0p1 m h2so4 potential is 1p125 
 460    1  500  512 608 512   0   5.0010     0.00000 0.00000   0.00000    1
 Collimation      Mosaic    Wavelength   T-Start   Incr.   H-field #Det    
  1       0.05000    0.00000    0.05000
  2       0.05000    0.00000    0.05000
  3       0.00000    0.01000    0.50000
  4       0.00000    0.02000    1.00000
  5       0.60000    0.00000    0.60000
  6       0.80000    0.00000    0.80000
 Mot:    Start       Step      End
     A3         A4       MIN      MONITOR      COUNTS 
      0.000      0.000    0.50        6828        1270
      0.010      0.020    0.50        6850         960
      0.020      0.040    0.50        6939         786
      0.030      0.060    0.50        7114        1002
      0.040      0.080    0.50        6835        1398
      0.050      0.100    0.50        6924        1703
      0.060      0.120    0.50        6959        1857
      0.070      0.140    0.50        6887        1994
      0.080      0.160    0.50        7019        1959
      0.090      0.180    0.50        6862        1950
      0.100      0.200    0.50        6968        1902
      0.110      0.220    0.50        6971        1899
      0.120      0.240    0.50        6883        1816
      0.130      0.260    0.50        6991        1738
      0.140      0.280    0.50        7046        1730
      0.150      0.300    0.50        6840        1604
      0.160      0.320    0.50        7120        1598
      0.170      0.340    0.50        6884        1542
      0.180      0.360    0.50        6881        1449
      0.190      0.380    0.50        6927        1359
      0.200      0.400    0.50        6875        1321
      0.210      0.420    0.50        6800        1234
      0.220      0.440    0.50        6951        1185
      0.230      0.460    0.50        6978        1143
      0.240      0.480    0.50        6731        1033
      0.250      0.500    0.50        6894         988
      0.260      0.520    0.50        6915         916
      0.270      0.540    0.50        6871         848
      0.280      0.560    0.50        6881         872
      0.290      0.580    0.50        6924         846
      0.300      0.600    0.50        6932         816
      0.310      0.620    0.50        6932         746
      0.320      0.640    0.50        6918         679
      0.330      0.660    0.50        7096         695
      0.340      0.680    0.50        6945         651
      0.350      0.700    0.50        6995         592
      0.360      0.720    0.50        6972         552
      0.370      0.740    0.50        6999         561
      0.380      0.760    0.50        6846         525
      0.390      0.780    0.50        6768         494
      0.400      0.800    0.50        7013         451
      0.410      0.820    0.50        6865         446
      0.420      0.840    0.50        6929         419
      0.430      0.860    0.50        6925         360
      0.440      0.880    0.50        6867         379
      0.450      0.900    0.50        6880         350
      0.460      0.920    0.50        6852         351
      0.470      0.940    0.50        6853         297
      0.480      0.960    0.50        6753         285
      0.490      0.980    0.50        6931         252
      0.500      1.000    0.50        6877         257
