's16ho012.cg1' 'Dec  1 2010 07:42' 'I'         30.    2  'TIME'  101  'RAW'
  Filename         Date            Scan       Mon    Prf  Base   #pts  Type
s16ho pt nafion in 0p1 m h2so4 potential is 1p125 
 460    1  500  512 608 512   0   5.0010     0.00000 0.00000   0.00000    1
 Collimation      Mosaic    Wavelength   T-Start   Incr.   H-field #Det    
  1       0.80000    0.00800    1.60000
  2       0.80000    0.00800    1.60000
  3       2.00000    0.02000    4.00000
  4       4.00000    0.04000    8.00000
  5       2.40000    0.02400    4.80000
  6       3.20000    0.03200    6.40000
 Mot:    Start       Step      End
     A1         A2         A3         A4       MIN      MONITOR      COUNTS 
      0.800      0.800      2.000      4.000    1.00       60649         199
      0.808      0.808      2.020      4.040    1.00       60750         199
      0.816      0.816      2.040      4.080    1.00       62229         211
      0.824      0.824      2.060      4.120    1.00       62513         201
      0.832      0.832      2.080      4.160    1.00       62315         214
      0.840      0.840      2.100      4.200    1.00       63015         210
      0.848      0.848      2.120      4.240    1.00       63624         207
      0.856      0.856      2.140      4.280    1.00       64213         184
      0.864      0.864      2.160      4.320    1.00       64538         182
      0.872      0.872      2.180      4.360    1.00       65683         168
      0.880      0.880      2.200      4.400    1.00       65922         186
      0.888      0.888      2.220      4.440    1.00       66277         159
      0.896      0.896      2.240      4.480    1.00       66584         182
      0.904      0.904      2.260      4.520    1.00       67486         175
      0.912      0.912      2.280      4.560    1.00       67788         181
      0.920      0.920      2.300      4.600    1.00       68630         174
      0.928      0.928      2.320      4.640    1.00       68742         186
      0.936      0.936      2.340      4.680    1.00       69584         176
      0.944      0.944      2.360      4.720    1.00       70099         182
      0.952      0.952      2.380      4.760    1.00       70352         169
      0.960      0.960      2.400      4.800    1.00       70839         175
      0.968      0.968      2.420      4.840    1.00       71646         164
      0.976      0.976      2.440      4.880    1.00       72315         175
      0.984      0.984      2.460      4.920    1.00       71901         158
      0.992      0.992      2.480      4.960    1.00       73001         141
      1.000      1.000      2.500      5.000    1.00       73545         163
      1.008      1.008      2.520      5.040    1.00       73879         161
      1.016      1.016      2.540      5.080    1.00       73770         145
      1.024      1.024      2.560      5.120    1.00       74067         172
      1.032      1.032      2.580      5.160    1.00       75109         140
      1.040      1.040      2.600      5.200    1.00       75758         139
      1.048      1.048      2.620      5.240    1.00       76043         163
      1.056      1.056      2.640      5.280    1.00       76400         130
      1.064      1.064      2.660      5.320    1.00       77132         128
      1.072      1.072      2.680      5.360    1.00       78115         119
      1.080      1.080      2.700      5.400    1.00       77852         132
      1.088      1.088      2.720      5.440    1.00       78876         135
      1.096      1.096      2.740      5.480    1.00       78909         133
      1.104      1.104      2.760      5.520    1.00       79382         128
      1.112      1.112      2.780      5.560    1.00       79620         139
      1.120      1.120      2.800      5.600    1.00       80333          97
      1.128      1.128      2.820      5.640    1.00       81059         108
      1.136      1.136      2.840      5.680    1.00       81370         120
      1.144      1.144      2.860      5.720    1.00       82476         108
      1.152      1.152      2.880      5.760    1.00       83041         128
      1.160      1.160      2.900      5.800    1.00       83158          89
      1.168      1.168      2.920      5.840    1.00       83841         101
      1.176      1.176      2.940      5.880    1.00       83765         124
      1.184      1.184      2.960      5.920    1.00       84232          91
      1.192      1.192      2.980      5.960    1.00       84794         129
      1.200      1.200      3.000      6.000    1.00       84606         107
      1.208      1.208      3.020      6.040    1.00       86011         122
      1.216      1.216      3.040      6.080    1.00       86581         139
      1.224      1.224      3.060      6.120    1.00       87110         119
      1.232      1.232      3.080      6.160    1.00       87258         127
      1.240      1.240      3.100      6.200    1.00       87156         104
      1.248      1.248      3.120      6.240    1.00       88140         126
      1.256      1.256      3.140      6.280    1.00       88920         100
      1.264      1.264      3.160      6.320    1.00       89507         127
      1.272      1.272      3.180      6.360    1.00       89931         152
      1.280      1.280      3.200      6.400    1.00       90732         139
      1.288      1.288      3.220      6.440    1.00       90424         135
      1.296      1.296      3.240      6.480    1.00       91285         146
      1.304      1.304      3.260      6.520    1.00       91762         165
      1.312      1.312      3.280      6.560    1.00       92247         181
      1.320      1.320      3.300      6.600    1.00       92383         151
      1.328      1.328      3.320      6.640    1.00       93092         170
      1.336      1.336      3.340      6.680    1.00       93468         163
      1.344      1.344      3.360      6.720    1.00       94526         173
      1.352      1.352      3.380      6.760    1.00       94034         170
      1.360      1.360      3.400      6.800    1.00       95232         205
      1.368      1.368      3.420      6.840    1.00       95838         178
      1.376      1.376      3.440      6.880    1.00       96296         201
      1.384      1.384      3.460      6.920    1.00       96796         196
      1.392      1.392      3.480      6.960    1.00       96688         199
      1.400      1.400      3.500      7.000    1.00       97752         211
      1.408      1.408      3.520      7.040    1.00       97807         181
      1.416      1.416      3.540      7.080    1.00       98217         205
      1.424      1.424      3.560      7.120    1.00       99264         209
      1.432      1.432      3.580      7.160    1.00      100064         194
      1.440      1.440      3.600      7.200    1.00      100056         202
      1.448      1.448      3.620      7.240    1.00      100658         213
      1.456      1.456      3.640      7.280    1.00      101544         222
      1.464      1.464      3.660      7.320    1.00      101492         211
      1.472      1.472      3.680      7.360    1.00      101866         209
      1.480      1.480      3.700      7.400    1.00      102926         219
      1.488      1.488      3.720      7.440    1.00      103204         201
      1.496      1.496      3.740      7.480    1.00      103687         238
      1.504      1.504      3.760      7.520    1.00      104503         200
      1.512      1.512      3.780      7.560    1.00      104222         207
      1.520      1.520      3.800      7.600    1.00      105637         197
      1.528      1.528      3.820      7.640    1.00      106119         206
      1.536      1.536      3.840      7.680    1.00      105779         227
      1.544      1.544      3.860      7.720    1.00      106746         212
      1.552      1.552      3.880      7.760    1.00      106876         226
      1.560      1.560      3.900      7.800    1.00      108414         204
      1.568      1.568      3.920      7.840    1.00      107497         206
      1.576      1.576      3.940      7.880    1.00      107873         207
      1.584      1.584      3.960      7.920    1.00      109525         204
      1.592      1.592      3.980      7.960    1.00      109660         215
      1.600      1.600      4.000      8.000    1.00      109701         231
