's47ho004.cg1' 'Nov 30 2010 14:05' 'I'         30.    2  'TIME'   51  'RAW'
  Filename         Date            Scan       Mon    Prf  Base   #pts  Type
s47ho pt nafion in 0p1 m h2so4 potential is 1p2 v 
 460    1  500  512 608 512   0   5.0010     0.00000 0.00000   0.00000    1
 Collimation      Mosaic    Wavelength   T-Start   Incr.   H-field #Det    
  1       0.40000    0.00800    0.80000
  2       0.40000    0.00800    0.80000
  3       1.00000    0.02000    2.00000
  4       2.00000    0.04000    4.00000
  5       1.20000    0.02400    2.40000
  6       1.60000    0.03200    3.20000
 Mot:    Start       Step      End
     A1         A2         A3         A4       MIN      MONITOR      COUNTS 
      0.400      0.400      1.000      2.000    1.00       36289        1622
      0.408      0.408      1.020      2.040    1.00       36060        1510
      0.416      0.416      1.040      2.080    1.00       37278        1507
      0.424      0.424      1.060      2.120    1.00       37078        1438
      0.432      0.432      1.080      2.160    1.00       38188        1342
      0.440      0.440      1.100      2.200    1.00       38466        1239
      0.448      0.448      1.120      2.240    1.00       38909        1017
      0.456      0.456      1.140      2.280    1.00       39695         851
      0.464      0.464      1.160      2.320    1.00       39956         754
      0.472      0.472      1.180      2.360    1.00       40203         697
      0.480      0.480      1.200      2.400    1.00       40995         678
      0.488      0.488      1.220      2.440    1.00       41666         622
      0.496      0.496      1.240      2.480    1.00       42256         597
      0.504      0.504      1.260      2.520    1.00       42626         498
      0.512      0.512      1.280      2.560    1.00       43165         427
      0.520      0.520      1.300      2.600    1.00       43359         324
      0.528      0.528      1.320      2.640    1.00       44360         300
      0.536      0.536      1.340      2.680    1.00       44339         247
      0.544      0.544      1.360      2.720    1.00       44930         264
      0.552      0.552      1.380      2.760    1.00       45054         241
      0.560      0.560      1.400      2.800    1.00       45979         199
      0.568      0.568      1.420      2.840    1.00       46331         195
      0.576      0.576      1.440      2.880    1.00       46890         155
      0.584      0.584      1.460      2.920    1.00       48197         130
      0.592      0.592      1.480      2.960    1.00       47778          98
      0.600      0.600      1.500      3.000    1.00       48286         122
      0.608      0.608      1.520      3.040    1.00       49028          89
      0.616      0.616      1.540      3.080    1.00       49361         103
      0.624      0.624      1.560      3.120    1.00       49884         104
      0.632      0.632      1.580      3.160    1.00       50894         103
      0.640      0.640      1.600      3.200    1.00       51356         118
      0.648      0.648      1.620      3.240    1.00       51482         129
      0.656      0.656      1.640      3.280    1.00       51888         101
      0.664      0.664      1.660      3.320    1.00       52368         107
      0.672      0.672      1.680      3.360    1.00       52918         107
      0.680      0.680      1.700      3.400    1.00       53353         104
      0.688      0.688      1.720      3.440    1.00       53596         123
      0.696      0.696      1.740      3.480    1.00       54675         128
      0.704      0.704      1.760      3.520    1.00       54573         151
      0.712      0.712      1.780      3.560    1.00       55714         142
      0.720      0.720      1.800      3.600    1.00       55578         147
      0.728      0.728      1.820      3.640    1.00       56459         142
      0.736      0.736      1.840      3.680    1.00       57443         144
      0.744      0.744      1.860      3.720    1.00       57254         160
      0.752      0.752      1.880      3.760    1.00       57635         183
      0.760      0.760      1.900      3.800    1.00       58945         185
      0.768      0.768      1.920      3.840    1.00       58713         185
      0.776      0.776      1.940      3.880    1.00       59706         192
      0.784      0.784      1.960      3.920    1.00       59600         204
      0.792      0.792      1.980      3.960    1.00       60752         190
      0.800      0.800      2.000      4.000    1.00       60946         203
