's47hn031.cg1' 'Nov 30 2010 00:30' 'I'         30.    4  'TIME'   50  'RAW'
  Filename         Date            Scan       Mon    Prf  Base   #pts  Type
s47hn pt nafion in 0p1 m h2so4 potential is 0p1 v 
 460    1  500  512 608 512   0   5.0010     0.00000 0.00000   0.00000    1
 Collimation      Mosaic    Wavelength   T-Start   Incr.   H-field #Det    
  1       0.80800    0.01600    1.59200
  2       0.80800    0.01600    1.59200
  3       2.02000    0.04000    3.98000
  4       4.04000    0.08000    7.96000
  5       2.42400    0.04800    4.77600
  6       3.23200    0.06400    6.36800
 Mot:    Start       Step      End
     A1         A2         A3         A4       MIN      MONITOR      COUNTS 
      0.808      0.808      2.020      4.040    2.00      123410         370
      0.824      0.824      2.060      4.120    2.00      125553         384
      0.840      0.840      2.100      4.200    2.00      127850         376
      0.856      0.856      2.140      4.280    2.00      129907         433
      0.872      0.872      2.180      4.360    2.00      131332         486
      0.888      0.888      2.220      4.440    2.00      132954         445
      0.904      0.904      2.260      4.520    2.00      135782         391
      0.920      0.920      2.300      4.600    2.00      137342         450
      0.936      0.936      2.340      4.680    2.00      139244         492
      0.952      0.952      2.380      4.760    2.00      140947         435
      0.968      0.968      2.420      4.840    2.00      143256         474
      0.984      0.984      2.460      4.920    2.00      144756         493
      1.000      1.000      2.500      5.000    2.00      146257         464
      1.016      1.016      2.540      5.080    2.00      148638         476
      1.032      1.032      2.580      5.160    2.00      150804         472
      1.048      1.048      2.620      5.240    2.00      152721         465
      1.064      1.064      2.660      5.320    2.00      154288         435
      1.080      1.080      2.700      5.400    2.00      156977         392
      1.096      1.096      2.740      5.480    2.00      158376         433
      1.112      1.112      2.780      5.560    2.00      160864         417
      1.128      1.128      2.820      5.640    2.00      163137         397
      1.144      1.144      2.860      5.720    2.00      164878         362
      1.160      1.160      2.900      5.800    2.00      166120         367
      1.176      1.176      2.940      5.880    2.00      168589         322
      1.192      1.192      2.980      5.960    2.00      170405         285
      1.208      1.208      3.020      6.040    2.00      171932         329
      1.224      1.224      3.060      6.120    2.00      174763         295
      1.240      1.240      3.100      6.200    2.00      176584         279
      1.256      1.256      3.140      6.280    2.00      179054         267
      1.272      1.272      3.180      6.360    2.00      179789         268
      1.288      1.288      3.220      6.440    2.00      182807         261
      1.304      1.304      3.260      6.520    2.00      183480         250
      1.320      1.320      3.300      6.600    2.00      185070         254
      1.336      1.336      3.340      6.680    2.00      187220         225
      1.352      1.352      3.380      6.760    2.00      189568         253
      1.368      1.368      3.420      6.840    2.00      191717         262
      1.384      1.384      3.460      6.920    2.00      194245         264
      1.400      1.400      3.500      7.000    2.00      196046         262
      1.416      1.416      3.540      7.080    2.00      197577         258
      1.432      1.432      3.580      7.160    2.00      201580         276
      1.448      1.448      3.620      7.240    2.00      202523         248
      1.464      1.464      3.660      7.320    2.00      203929         298
      1.480      1.480      3.700      7.400    2.00      206104         311
      1.496      1.496      3.740      7.480    2.00      209382         324
      1.512      1.512      3.780      7.560    2.00      209849         323
      1.528      1.528      3.820      7.640    2.00      212298         380
      1.544      1.544      3.860      7.720    2.00      213844         389
      1.560      1.560      3.900      7.800    2.00      216801         374
      1.576      1.576      3.940      7.880    2.00      218368         412
      1.592      1.592      3.980      7.960    2.00      220866         427
